<Bundle xmlns="http://hl7.org/fhir">
	<type value="transaction" />
	<entry>
		<fullUrl value="Patient/PatientId-sisansarahId" />
		<resource>
			<Patient xmlns="http://hl7.org/fhir">
				<id value="PatientId-sisansarahId" />
				<identifier>
					<system value="http://hl7.org/fhir/v2/0203" />
					<value value="MR" />
				</identifier>
				<active value="true" />
				<name>
					<use value="usual" />
					<family value="ㅎ홍" />
					<given value="길동" />
				</name>
				<telecom>
					<system value="phone" />
					<value value="010-1234-5678" />
					<use value="home" />
				</telecom>
				<gender value="male" />
				<birthDate value="1970-01-01" />
			</Patient>
		</resource>
		<request>
			<method value="PUT" />
			<url value="Patient/PatientId-sisansarahId" />
		</request>
	</entry>

	<entry>
		<fullUrl value="DeviceComponent/SysId-feedabeedeadbeef" />
		<resource>
			<DeviceComponent xmlns="http://hl7.org/fhir">
				<id value="SysId-feedabeedeadbeef" />
				<extension
					url="http://pcha.org/phd/documents/fhir/extensions/device-property">
					<valueCodeableConcept>
						<extension
							url="http://pcha.org/phd/documents/fhir/extensions/code-value">
							<valueCodeableConcept>
								<coding>
									<system value="urn:iso:std:iso:11073:10101" />
									<code value="532226" />
									<display value="MDC_TIME_SYNC_NTPV4: " />
								</coding>
							</valueCodeableConcept>
						</extension>
						<coding>
							<system value="urn:iso:std:iso:11073:10101" />
							<code value="68220" />
							<display value="MDC_TIME_SYNC_PROTOCOL: Time synchronization protocol" />
						</coding>
					</valueCodeableConcept>
				</extension>

				<extension
					url="http://pcha.org/phd/documents/fhir/extensions/device-property">
					<valueCodeableConcept>
						<extension
							url="http://pcha.org/phd/documents/fhir/extensions/code-value">
							<valueString value="5.0" />
						</extension>
						<coding>
							<system value="urn:iso:std:iso:11073:10101" />
							<code value="532352" />
							<display value="MDC_REG_CERT_DATA_CONTINUA_VERSION: Continua Version" />
						</coding>
					</valueCodeableConcept>
				</extension>

				<extension
					url="http://pcha.org/phd/documents/fhir/extensions/device-property">
					<valueCodeableConcept>
						<extension
							url="http://pcha.org/phd/documents/fhir/extensions/code-value">
							<valueCodeableConcept>
								<coding>
									<system value="http://pcha.org/phd/documents/reg-cert-codes" />
									<code value="16388" />
								</coding>
							</valueCodeableConcept>
						</extension>
						<extension
							url="http://pcha.org/phd/documents/fhir/extensions/code-value">
							<valueCodeableConcept>
								<coding>
									<system value="http://pcha.org/phd/documents/reg-cert-codes" />
									<code value="8196" />
								</coding>
							</valueCodeableConcept>
						</extension>
						<coding>
							<system value="urn:iso:std:iso:11073:10101" />
							<code value="532353" />
							<display
								value="MDC_REG_CERT_DATA_CONTINUA_CERT_DEV_LIST: certified device list as transport-specialization combo" />
						</coding>
					</valueCodeableConcept>
				</extension>

				<extension
					url="http://pcha.org/phd/documents/fhir/extensions/device-property">
					<valueCodeableConcept>
						<extension
							url="http://pcha.org/phd/documents/fhir/extensions/code-value">
							<valueCodeableConcept>
								<coding>
									<system value="http://pcha.org/phd/documents/reg-cert-wan-codes" />
									<code value="0" />
								</coding>
							</valueCodeableConcept>
						</extension>
						<extension
							url="http://pcha.org/phd/documents/fhir/extensions/code-value">
							<valueCodeableConcept>
								<coding>
									<system
										value="http://pcha.org/phd/documents/fhir/extensions/code-value" />
									<code value="7" />
								</coding>
							</valueCodeableConcept>
						</extension>
						<coding>
							<system value="urn:iso:std:iso:11073:10101" />
							<code value="532353" />
							<display
								value="MDC_REG_CERT_DATA_CONTINUA_AHD_CERT_LIST: certified Upload classes" />
						</coding>
					</valueCodeableConcept>
				</extension>

				<extension
					url="http://pcha.org/phd/documents/fhir/extensions/device-property">
					<valueCodeableConcept>
						<extension
							url="http://pcha.org/phd/documents/fhir/extensions/code-value">
							<valueCodeableConcept>
								<extension
									url="http://pcha.org/phd/documents/fhir/extensions/code-value">
									<valueCodeableConcept>
										<coding>
											<system value="http://hl7.org/fhir/v2/0136" />
											<code value="y" />
											<display value="Device is not regulated" />
										</coding>
									</valueCodeableConcept>
								</extension>
								<coding>
									<system value="http://hl7.org/fhir/IEEE.ASN1" />
									<code value="532354.0" />
								</coding>
							</valueCodeableConcept>
						</extension>
						<coding>
							<system value="urn:iso:std:iso:11073:10101" />
							<code value="532354" />
							<display
								value="MDC_REG_CERT_DATA_CONTINUA_REG_STATUS: Regulation status" />
						</coding>
					</valueCodeableConcept>
				</extension>
				<type>
					<coding>
						<system value="urn:iso:std:iso:11073:10101" />
						<code value="531981" />
						<display value="MDC_MOC_VMS_MDS_AHD" />
					</coding>
				</type>
				<source>
					<reference value="Device/SysId-1234567800112233" />
				</source>
				<identifier>
					<system value="urn:oid:1.2.840.10004.1.1.1.0.0.1.0.0.1.2680" />
					<value value="fe-ed-ab-ee-de-ad-be-ef" />
					<assigner>
						<display value="EUI-64" />
					</assigner>
				</identifier>
			</DeviceComponent>
		</resource>
		<request>
			<method value="PUT" />
			<url value="DeviceComponent/SysId-feedabeedeadbeef" />
		</request>
	</entry>



	<entry>
		<fullUrl value="urn:oid:1.0.1" />
		<resource>
			<Observation xmlns="http://hl7.org/fhir">
				<meta>
					<profile
						value="http://pchalliance.org/phdfhir/StructureDefinition/PhdCompoundNumericObservation" />
				</meta>
				<identifier>
					<value
						value="sisansarahId-urn:oid:1.2.3.4.5.6.7.8.10~1234567800112233~150020~20170817125456.000~105~70~81.7" />
				</identifier>
				<status value="final" />
				<category>
					<coding>
						<system value="http://hl7.org/fhir/observation-category" />
						<code value="vital-signs" />
						<display value="Vital Signs" />
					</coding>
				</category>
				<code>
					<coding>
						<system value="urn:iso:std:iso:11073:10101" />
						<code value="150020" />
						<display value="MDC_PRESS_BLD_NONINV" />
					</coding>
					<coding>
						<system value="http://loinc.org" />
						<code value="55284-4" />
						<display value="Blood Pressure" />
					</coding>
				</code>
				<subject>
					<reference value="Patient/PatientId-sisansarahId" />
				</subject>
				<effectiveDateTime value="2017-08-17T12:54:57.950-04:00" />
				<performer>
					<reference value="Patient/PatientId-sisansarahId" />
				</performer>
				<device>
					<reference value="Device/SysId-1234567800112233" />
				</device>
				<component>
					<code>
						<coding>
							<system value="urn:iso:std:iso:11073:10101" />
							<code value="150021" />
							<display value="MDC_PRESS_BLD_NONINV_SYS" />
						</coding>
						<coding>
							<system value="http://loinc.org" />
							<code value="8480-6" />
							<display value="Systolic blood pressure" />
						</coding>
					</code>
					<valueQuantity>
						<value value="105" />
						<unit value="mmHg" />
						<system value="urn:iso:std:iso:11073:10101" />
						<code value="266016" />
					</valueQuantity>
				</component>
				<component>
					<code>
						<coding>
							<system value="urn:iso:std:iso:11073:10101" />
							<code value="150022" />
							<display value="MDC_PRESS_BLD_NONINV_DIA" />
						</coding>
						<coding>
							<system value="http://loinc.org" />
							<code value="8462-4" />
							<display value="Diastolic blood pressure" />
						</coding>
					</code>
					<valueQuantity>
						<value value="70" />
						<unit value="mmHg" />
						<system value="urn:iso:std:iso:11073:10101" />
						<code value="266016" />
					</valueQuantity>
				</component>
				<component>
					<code>
						<coding>
							<system value="urn:iso:std:iso:11073:10101" />
							<code value="150023" />
							<display value="MDC_PRESS_BLD_NONINV_MEAN" />
						</coding>
					</code>
					<valueQuantity>
						<value value="81.7" />
						<unit value="mmHg" />
						<system value="urn:iso:std:iso:11073:10101" />
						<code value="266016" />
					</valueQuantity>
				</component>

			</Observation>
		</resource>
		<request>
			<method value="POST" />
			<url value="Observation" />
			<ifNoneExist
				value="identifier=sisansarahId-urn:oid:1.2.3.4.5.6.7.8.10~1234567800112233~150020~20170817125456.000~105~70~81.7" />
		</request>
	</entry>

	<entry>
		<fullUrl value="urn:oid:1.0.0.1" />
		<resource>
			<Observation xmlns="http://hl7.org/fhir">
				<meta>
					<profile
						value="http://pchalliance.org/phdfhir/StructureDefinition/PhdNumericObservation" />
				</meta>
				<identifier>
					<value
						value="sisansarahId-urn:oid:1.2.3.4.5.6.7.8.10~1234567800112233~149546~20170817125456.000~80" />
				</identifier>
				<status value="final" />
				<category>
					<coding>
						<system value="http://hl7.org/fhir/observation-category" />
						<code value="vital-signs" />
						<display value="Vital Signs" />
					</coding>
				</category>
				<code>
					<coding>
						<system value="urn:iso:std:iso:11073:10101" />
						<code value="149546" />
						<display value="MDC_PULS_RATE_NON_INV" />
					</coding>
					<coding>
						<system value="http://loinc.org" />
						<code value="8867-4" />
						<display value="Blood Pressure cuff heart rate" />
					</coding>
				</code>
				<subject>
					<reference value="Patient/PatientId-sisansarahId" />
				</subject>
				<effectiveDateTime value="2017-08-17T12:54:57.950-04:00" />
				<performer>
					<reference value="Patient/PatientId-sisansarahId" />
				</performer>
				<valueQuantity>
					<value value="70" />
					<unit value="/min" />
					<system value="urn:iso:std:iso:11073:10101" />
					<code value="264864" />
				</valueQuantity>
				<device>
					<reference value="Device/SysId-1234567800112233" />
				</device>
				<related id="coincidentTimeStampRelated">
					<type value="qualified-by" />
					<target>
						<reference value="urn:oid:3.14159.20170817125454.950" />
					</target>
				</related>
			</Observation>
		</resource>
		<request>
			<method value="POST" />
			<url value="Observation" />
			<ifNoneExist
				value="identifier=identifier=sisansarahId-urn:oid:1.2.3.4.5.6.7.8.10~1234567800112233~149546~20170817125456.000~80" />
		</request>
	</entry>

	<entry>
		<fullUrl value="Device/SysId-1234567800112233" />
		<resource>
			<Device xmlns="http://hl7.org/fhir">
				<id value="SysId-1234567800112233" />
				<identifier>
					<use value="official" />
					<system value="urn:oid:1.2.840.10004.1.1.1.0.0.1.0.0.1.2680" />
					<value value="12-34-56-78-00-11-22-33" />
					<assigner>
						<display value="EUI-64" />
					</assigner>
				</identifier>
				<status value="active" />
				<type>
					<coding>
						<system value="urn:iso:std:iso:11073:10101" />
						<code value="528391" />
						<display value="MDC_DEV_SPEC_PROFILE_BP" />
					</coding>
				</type>
				<lotNumber value="20150301001" />
				<manufacturer value="Lamprey Networks" />
				<model value="Blood Pressure 1.0.0" />
				<patient>
					<reference value="Patient/PatientId-sisansarahId" />
				</patient>
			</Device>
		</resource>
		<request>
			<method value="PUT" />
			<url value="Device/SysId-1234567800112233" />
		</request>
	</entry>
</Bundle>